Date,Time,File,Subj,Cond,Block,Trial,Order,Resp,Name,Stim,RT,Correct,Started@,LoadTime,TotalInt,Stim 1,Time 1,Stim 2,Time 2,Stim 3,Time 3,Stim 4,Time 4,
4/14/2015,11:45:38 AM,C:\Users\uqebake1\Desktop\SIP\speed task\speedtask1.csv,10,2,1,0,1.01,18,E,instruct1,16955,TRUE,0,510,1007,instruct1,16965,correcte,2850,correcti,1433,instruct2,11166,
4/14/2015,11:45:38 AM,C:\Users\uqebake1\Desktop\SIP\speed task\speedtask1.csv,10,2,1,0,1.02,23,I,correcte,2842,TRUE,0,510,1007,instruct1,16965,correcte,2850,correcti,1433,instruct2,11166,
4/14/2015,11:45:38 AM,C:\Users\uqebake1\Desktop\SIP\speed task\speedtask1.csv,10,2,1,0,1.03,57,SPACE,correcti,1427,TRUE,0,510,1007,instruct1,16965,correcte,2850,correcti,1433,instruct2,11166,
4/14/2015,11:45:38 AM,C:\Users\uqebake1\Desktop\SIP\speed task\speedtask1.csv,10,2,1,0,1.04,57,SPACE,instruct2,11162,TRUE,0,510,1007,instruct1,16965,correcte,2850,correcti,1433,instruct2,11166,
4/14/2015,11:45:38 AM,C:\Users\uqebake1\Desktop\SIP\speed task\speedtask1.csv,10,2,1,1,2.02,23,I,footer,2660,TRUE,33421,29,1000,speed1,0,footer,2666,
4/14/2015,11:45:38 AM,C:\Users\uqebake1\Desktop\SIP\speed task\speedtask1.csv,10,2,1,2,11.02,18,E,footer,791,TRUE,55386,27,1000,speed2,0,footer,800,
4/14/2015,11:45:38 AM,C:\Users\uqebake1\Desktop\SIP\speed task\speedtask1.csv,10,2,1,3,25.02,23,I,footer,1382,TRUE,89234,28,1000,speed3,0,footer,1383,
4/14/2015,11:45:38 AM,C:\Users\uqebake1\Desktop\SIP\speed task\speedtask1.csv,10,2,1,4,31.02,18,E,footer,1363,TRUE,102365,30,1001,speed4,0,footer,1367,
4/14/2015,11:45:38 AM,C:\Users\uqebake1\Desktop\SIP\speed task\speedtask1.csv,10,2,1,5,20.02,18,E,footer,781,FALSE,77051,29,1000,speed5,0,footer,783,
4/14/2015,11:45:38 AM,C:\Users\uqebake1\Desktop\SIP\speed task\speedtask1.csv,10,2,1,6,8.02,18,E,footer,1218,TRUE,48319,29,1000,speed6,0,footer,1234,
4/14/2015,11:45:38 AM,C:\Users\uqebake1\Desktop\SIP\speed task\speedtask1.csv,10,2,1,7,26.02,23,I,footer,991,TRUE,91617,29,1000,speed7,0,footer,999,
4/14/2015,11:45:38 AM,C:\Users\uqebake1\Desktop\SIP\speed task\speedtask1.csv,10,2,1,8,6.02,18,E,footer,1014,TRUE,44186,29,1000,speed8,0,footer,1017,
4/14/2015,11:45:38 AM,C:\Users\uqebake1\Desktop\SIP\speed task\speedtask1.csv,10,2,1,9,30.02,18,E,footer,970,FALSE,100366,31,1016,speed9,0,footer,983,
4/14/2015,11:45:38 AM,C:\Users\uqebake1\Desktop\SIP\speed task\speedtask1.csv,10,2,1,10,9.02,18,E,footer,1752,TRUE,50553,27,1000,speed10,0,footer,1767,
4/14/2015,11:45:38 AM,C:\Users\uqebake1\Desktop\SIP\speed task\speedtask1.csv,10,2,1,11,19.02,23,I,footer,947,TRUE,75085,27,1016,speed11,0,footer,950,
4/14/2015,11:45:38 AM,C:\Users\uqebake1\Desktop\SIP\speed task\speedtask1.csv,10,2,1,12,29.02,18,E,footer,1644,TRUE,97716,27,1000,speed12,0,footer,1650,
4/14/2015,11:45:38 AM,C:\Users\uqebake1\Desktop\SIP\speed task\speedtask1.csv,10,2,1,13,16.02,18,E,footer,780,TRUE,68269,26,1000,speed13,0,footer,783,
4/14/2015,11:45:38 AM,C:\Users\uqebake1\Desktop\SIP\speed task\speedtask1.csv,10,2,1,14,21.02,18,E,footer,1654,TRUE,78834,29,1000,speed14,0,footer,1666,
4/14/2015,11:45:38 AM,C:\Users\uqebake1\Desktop\SIP\speed task\speedtask1.csv,10,2,1,15,5.02,23,I,footer,1131,TRUE,42053,29,1000,speed15,0,footer,1133,
4/14/2015,11:45:38 AM,C:\Users\uqebake1\Desktop\SIP\speed task\speedtask1.csv,10,2,1,16,24.02,18,E,footer,799,TRUE,87434,27,1000,speed16,0,footer,800,
4/14/2015,11:45:38 AM,C:\Users\uqebake1\Desktop\SIP\speed task\speedtask1.csv,10,2,1,17,3.02,23,I,footer,1426,TRUE,37087,27,1000,speed17,0,footer,1433,
4/14/2015,11:45:38 AM,C:\Users\uqebake1\Desktop\SIP\speed task\speedtask1.csv,10,2,1,18,18.02,18,E,footer,1329,TRUE,72751,29,1000,speed18,0,footer,1334,
4/14/2015,11:45:38 AM,C:\Users\uqebake1\Desktop\SIP\speed task\speedtask1.csv,10,2,1,19,17.02,18,E,footer,1685,TRUE,70052,28,1000,speed19,0,footer,1699,
4/14/2015,11:45:38 AM,C:\Users\uqebake1\Desktop\SIP\speed task\speedtask1.csv,10,2,1,20,7.02,23,I,footer,1101,TRUE,46203,28,1000,speed20,0,footer,1116,
4/14/2015,11:45:38 AM,C:\Users\uqebake1\Desktop\SIP\speed task\speedtask1.csv,10,2,1,21,13.02,23,I,footer,970,TRUE,59102,30,1000,speed21,0,footer,983,
4/14/2015,11:45:38 AM,C:\Users\uqebake1\Desktop\SIP\speed task\speedtask1.csv,10,2,1,22,15.02,23,I,footer,3780,TRUE,63485,30,1000,speed22,0,footer,3784,
4/14/2015,11:45:38 AM,C:\Users\uqebake1\Desktop\SIP\speed task\speedtask1.csv,10,2,1,23,28.02,23,I,footer,1088,TRUE,95616,29,1000,speed23,0,footer,1100,
4/14/2015,11:45:38 AM,C:\Users\uqebake1\Desktop\SIP\speed task\speedtask1.csv,10,2,1,24,4.02,23,I,footer,1529,TRUE,39520,29,1000,speed24,0,footer,1533,
4/14/2015,11:45:38 AM,C:\Users\uqebake1\Desktop\SIP\speed task\speedtask1.csv,10,2,1,25,27.02,18,E,footer,967,TRUE,93617,27,1016,speed25,0,footer,983,
4/14/2015,11:45:38 AM,C:\Users\uqebake1\Desktop\SIP\speed task\speedtask1.csv,10,2,1,26,22.02,18,E,footer,2709,TRUE,81500,28,1000,speed26,0,footer,2718,
4/14/2015,11:45:38 AM,C:\Users\uqebake1\Desktop\SIP\speed task\speedtask1.csv,10,2,1,27,23.02,18,E,footer,1199,TRUE,85218,29,1016,speed27,0,footer,1200,
4/14/2015,11:45:38 AM,C:\Users\uqebake1\Desktop\SIP\speed task\speedtask1.csv,10,2,1,28,10.02,23,I,footer,1049,TRUE,53320,30,1016,speed28,0,footer,1050,
4/14/2015,11:45:38 AM,C:\Users\uqebake1\Desktop\SIP\speed task\speedtask1.csv,10,2,1,29,12.02,23,I,footer,903,TRUE,57186,28,1000,speed29,0,footer,916,
4/14/2015,11:45:38 AM,C:\Users\uqebake1\Desktop\SIP\speed task\speedtask1.csv,10,2,1,30,14.02,23,I,footer,1395,TRUE,61085,28,1000,speed30,0,footer,1400,
