Date,Time,File,Subj,Cond,Block,Trial,Order,Resp,Name,Stim,RT,Correct,Started@,LoadTime,TotalInt,Stim 1,Time 1,Stim 2,Time 2,Stim 3,Time 3,Stim 4,Time 4,
4/14/2015,11:52:18 AM,C:\Users\uqebake1\Desktop\SIP\speed task\speedtask1.csv,12,2,1,0,1.01,18,E,instruct1,21770,TRUE,0,30373,30400,instruct1,21783,correcte,1866,correcti,1066,instruct2,18699,
4/14/2015,11:52:18 AM,C:\Users\uqebake1\Desktop\SIP\speed task\speedtask1.csv,12,2,1,0,1.02,23,I,correcte,1855,TRUE,0,30373,30400,instruct1,21783,correcte,1866,correcti,1066,instruct2,18699,
4/14/2015,11:52:18 AM,C:\Users\uqebake1\Desktop\SIP\speed task\speedtask1.csv,12,2,1,0,1.03,57,SPACE,correcti,1063,TRUE,0,30373,30400,instruct1,21783,correcte,1866,correcti,1066,instruct2,18699,
4/14/2015,11:52:18 AM,C:\Users\uqebake1\Desktop\SIP\speed task\speedtask1.csv,12,2,1,0,1.04,57,SPACE,instruct2,18692,TRUE,0,30373,30400,instruct1,21783,correcte,1866,correcti,1066,instruct2,18699,
4/14/2015,11:52:18 AM,C:\Users\uqebake1\Desktop\SIP\speed task\speedtask1.csv,12,2,1,1,7.02,23,I,footer,1197,TRUE,86547,26,1000,speed1,0,footer,1200,
4/14/2015,11:52:18 AM,C:\Users\uqebake1\Desktop\SIP\speed task\speedtask1.csv,12,2,1,2,2.02,18,E,footer,2050,TRUE,73814,29,1000,speed2,0,footer,2066,
4/14/2015,11:52:18 AM,C:\Users\uqebake1\Desktop\SIP\speed task\speedtask1.csv,12,2,1,3,4.02,23,I,footer,906,TRUE,79430,28,1000,speed3,0,footer,917,
4/14/2015,11:52:18 AM,C:\Users\uqebake1\Desktop\SIP\speed task\speedtask1.csv,12,2,1,4,27.02,18,E,footer,1305,TRUE,129511,28,1016,speed4,0,footer,1317,
4/14/2015,11:52:18 AM,C:\Users\uqebake1\Desktop\SIP\speed task\speedtask1.csv,12,2,1,5,29.02,18,E,footer,1220,FALSE,133827,28,1000,speed5,0,footer,1233,
4/14/2015,11:52:18 AM,C:\Users\uqebake1\Desktop\SIP\speed task\speedtask1.csv,12,2,1,6,28.02,18,E,footer,955,TRUE,131844,29,1016,speed6,0,footer,967,
4/14/2015,11:52:18 AM,C:\Users\uqebake1\Desktop\SIP\speed task\speedtask1.csv,12,2,1,7,11.02,23,I,footer,820,TRUE,94996,30,1000,speed7,0,footer,833,
4/14/2015,11:52:18 AM,C:\Users\uqebake1\Desktop\SIP\speed task\speedtask1.csv,12,2,1,8,3.02,23,I,footer,1544,FALSE,76880,30,1000,speed8,0,footer,1550,
4/14/2015,11:52:18 AM,C:\Users\uqebake1\Desktop\SIP\speed task\speedtask1.csv,12,2,1,9,16.02,23,I,footer,697,TRUE,105079,29,1000,speed9,0,footer,700,
4/14/2015,11:52:18 AM,C:\Users\uqebake1\Desktop\SIP\speed task\speedtask1.csv,12,2,1,10,6.02,18,E,footer,1305,TRUE,84230,26,1001,speed10,0,footer,1316,
4/14/2015,11:52:18 AM,C:\Users\uqebake1\Desktop\SIP\speed task\speedtask1.csv,12,2,1,11,10.02,23,I,footer,746,TRUE,93246,26,1000,speed11,0,footer,750,
4/14/2015,11:52:18 AM,C:\Users\uqebake1\Desktop\SIP\speed task\speedtask1.csv,12,2,1,12,18.02,23,I,footer,1233,FALSE,108495,27,1000,speed12,0,footer,1233,
4/14/2015,11:52:18 AM,C:\Users\uqebake1\Desktop\SIP\speed task\speedtask1.csv,12,2,1,13,14.02,18,E,footer,1139,TRUE,100645,27,1000,speed13,0,footer,1151,
4/14/2015,11:52:18 AM,C:\Users\uqebake1\Desktop\SIP\speed task\speedtask1.csv,12,2,1,14,24.02,18,E,footer,1057,TRUE,121695,26,1000,speed14,0,footer,1066,
4/14/2015,11:52:18 AM,C:\Users\uqebake1\Desktop\SIP\speed task\speedtask1.csv,12,2,1,15,26.02,23,I,footer,1810,TRUE,126678,26,1016,speed15,0,footer,1817,
4/14/2015,11:52:18 AM,C:\Users\uqebake1\Desktop\SIP\speed task\speedtask1.csv,12,2,1,16,13.02,23,I,footer,977,FALSE,98646,27,1016,speed16,0,footer,983,
4/14/2015,11:52:18 AM,C:\Users\uqebake1\Desktop\SIP\speed task\speedtask1.csv,12,2,1,17,15.02,23,I,footer,1268,TRUE,102796,27,1000,speed17,0,footer,1283,
4/14/2015,11:52:18 AM,C:\Users\uqebake1\Desktop\SIP\speed task\speedtask1.csv,12,2,1,18,23.02,18,E,footer,1276,TRUE,119411,27,1001,speed18,0,footer,1283,
4/14/2015,11:52:18 AM,C:\Users\uqebake1\Desktop\SIP\speed task\speedtask1.csv,12,2,1,19,5.02,18,E,footer,1861,TRUE,81347,26,1016,speed19,0,footer,1867,
4/14/2015,11:52:18 AM,C:\Users\uqebake1\Desktop\SIP\speed task\speedtask1.csv,12,2,1,20,30.02,23,I,footer,1460,TRUE,136060,27,1000,speed20,0,footer,1467,
4/14/2015,11:52:18 AM,C:\Users\uqebake1\Desktop\SIP\speed task\speedtask1.csv,12,2,1,21,21.02,23,I,footer,1098,TRUE,115061,27,1000,speed21,0,footer,1100,
4/14/2015,11:52:18 AM,C:\Users\uqebake1\Desktop\SIP\speed task\speedtask1.csv,12,2,1,22,20.02,23,I,footer,1369,TRUE,112662,27,1016,speed22,0,footer,1383,
4/14/2015,11:52:18 AM,C:\Users\uqebake1\Desktop\SIP\speed task\speedtask1.csv,12,2,1,23,19.02,23,I,footer,928,TRUE,110728,28,1000,speed23,0,footer,934,
4/14/2015,11:52:18 AM,C:\Users\uqebake1\Desktop\SIP\speed task\speedtask1.csv,12,2,1,24,9.02,23,I,footer,1169,TRUE,91063,27,1000,speed24,0,footer,1183,
4/14/2015,11:52:18 AM,C:\Users\uqebake1\Desktop\SIP\speed task\speedtask1.csv,12,2,1,25,22.02,18,E,footer,1238,TRUE,117161,27,1000,speed25,0,footer,1250,
4/14/2015,11:52:18 AM,C:\Users\uqebake1\Desktop\SIP\speed task\speedtask1.csv,12,2,1,26,12.02,18,E,footer,803,TRUE,96829,27,1000,speed26,0,footer,817,
4/14/2015,11:52:18 AM,C:\Users\uqebake1\Desktop\SIP\speed task\speedtask1.csv,12,2,1,27,25.02,18,E,footer,1903,TRUE,123761,27,1000,speed27,0,footer,1917,
4/14/2015,11:52:18 AM,C:\Users\uqebake1\Desktop\SIP\speed task\speedtask1.csv,12,2,1,28,31.02,23,I,footer,977,TRUE,138527,28,1000,speed28,0,footer,983,
4/14/2015,11:52:18 AM,C:\Users\uqebake1\Desktop\SIP\speed task\speedtask1.csv,12,2,1,29,17.02,23,I,footer,701,TRUE,106779,27,1000,speed29,0,footer,716,
4/14/2015,11:52:18 AM,C:\Users\uqebake1\Desktop\SIP\speed task\speedtask1.csv,12,2,1,30,8.02,23,I,footer,1309,TRUE,88747,27,1000,speed30,0,footer,1316,
