Date,Time,File,Subj,Cond,Block,Trial,Order,Resp,Name,Stim,RT,Correct,Started@,LoadTime,TotalInt,Stim 1,Time 1,Stim 2,Time 2,Stim 3,Time 3,Stim 4,Time 4,
4/13/2015,12:43:40 PM,C:\Users\uqebake1\Desktop\SIP\speed task\speedtask1.csv,5,1,1,0,1.01,18,E,instruct1,14899,TRUE,0,667,1014,instruct1,14899,correcte,2100,correcti,1283,instruct2,16799,
4/13/2015,12:43:40 PM,C:\Users\uqebake1\Desktop\SIP\speed task\speedtask1.csv,5,1,1,0,1.02,23,I,correcte,2091,TRUE,0,667,1014,instruct1,14899,correcte,2100,correcti,1283,instruct2,16799,
4/13/2015,12:43:40 PM,C:\Users\uqebake1\Desktop\SIP\speed task\speedtask1.csv,5,1,1,0,1.03,57,SPACE,correcti,1274,TRUE,0,667,1014,instruct1,14899,correcte,2100,correcti,1283,instruct2,16799,
4/13/2015,12:43:40 PM,C:\Users\uqebake1\Desktop\SIP\speed task\speedtask1.csv,5,1,1,0,1.04,57,SPACE,instruct2,16783,TRUE,0,667,1014,instruct1,14899,correcte,2100,correcti,1283,instruct2,16799,
4/13/2015,12:43:40 PM,C:\Users\uqebake1\Desktop\SIP\speed task\speedtask1.csv,5,1,1,1,11.02,23,I,footer,854,TRUE,56143,27,1000,speed1,0,footer,867,
4/13/2015,12:43:40 PM,C:\Users\uqebake1\Desktop\SIP\speed task\speedtask1.csv,5,1,1,2,30.02,18,E,footer,865,TRUE,95957,32,1000,speed2,0,footer,867,
4/13/2015,12:43:40 PM,C:\Users\uqebake1\Desktop\SIP\speed task\speedtask1.csv,5,1,1,3,6.02,23,I,footer,1175,TRUE,45927,32,1000,speed3,0,footer,1183,
4/13/2015,12:43:40 PM,C:\Users\uqebake1\Desktop\SIP\speed task\speedtask1.csv,5,1,1,4,26.02,18,E,footer,873,TRUE,88541,36,1000,speed4,0,footer,883,
4/13/2015,12:43:40 PM,C:\Users\uqebake1\Desktop\SIP\speed task\speedtask1.csv,5,1,1,5,21.02,23,I,footer,1119,TRUE,76559,32,1016,speed5,0,footer,1133,
4/13/2015,12:43:40 PM,C:\Users\uqebake1\Desktop\SIP\speed task\speedtask1.csv,5,1,1,6,31.02,18,E,footer,766,TRUE,97824,37,1016,speed6,0,footer,767,
4/13/2015,12:43:40 PM,C:\Users\uqebake1\Desktop\SIP\speed task\speedtask1.csv,5,1,1,7,12.02,23,I,footer,948,TRUE,58010,38,1000,speed7,0,footer,950,
4/13/2015,12:43:40 PM,C:\Users\uqebake1\Desktop\SIP\speed task\speedtask1.csv,5,1,1,8,4.02,23,I,footer,1220,FALSE,41178,38,1000,speed8,0,footer,1233,
4/13/2015,12:43:40 PM,C:\Users\uqebake1\Desktop\SIP\speed task\speedtask1.csv,5,1,1,9,19.02,23,I,footer,958,TRUE,72392,41,1000,speed9,0,footer,967,
4/13/2015,12:43:40 PM,C:\Users\uqebake1\Desktop\SIP\speed task\speedtask1.csv,5,1,1,10,9.02,18,E,footer,943,TRUE,52311,36,1016,speed10,0,footer,950,
4/13/2015,12:43:40 PM,C:\Users\uqebake1\Desktop\SIP\speed task\speedtask1.csv,5,1,1,11,25.02,23,I,footer,801,TRUE,86725,37,1000,speed11,0,footer,816,
4/13/2015,12:43:40 PM,C:\Users\uqebake1\Desktop\SIP\speed task\speedtask1.csv,5,1,1,12,15.02,18,E,footer,1736,TRUE,63726,33,1000,speed12,0,footer,1749,
4/13/2015,12:43:40 PM,C:\Users\uqebake1\Desktop\SIP\speed task\speedtask1.csv,5,1,1,13,29.02,18,E,footer,776,TRUE,94174,31,1000,speed13,0,footer,783,
4/13/2015,12:43:40 PM,C:\Users\uqebake1\Desktop\SIP\speed task\speedtask1.csv,5,1,1,14,3.02,18,E,footer,1063,TRUE,39111,33,1000,speed14,0,footer,1067,
4/13/2015,12:43:40 PM,C:\Users\uqebake1\Desktop\SIP\speed task\speedtask1.csv,5,1,1,15,22.02,23,I,footer,1226,TRUE,78708,36,1000,speed15,0,footer,1233,
4/13/2015,12:43:40 PM,C:\Users\uqebake1\Desktop\SIP\speed task\speedtask1.csv,5,1,1,16,5.02,18,E,footer,1507,TRUE,43411,31,1000,speed16,0,footer,1516,
4/13/2015,12:43:40 PM,C:\Users\uqebake1\Desktop\SIP\speed task\speedtask1.csv,5,1,1,17,17.02,23,I,footer,1150,TRUE,68376,34,1000,speed17,0,footer,1167,
4/13/2015,12:43:40 PM,C:\Users\uqebake1\Desktop\SIP\speed task\speedtask1.csv,5,1,1,18,7.02,18,E,footer,985,TRUE,48110,34,1000,speed18,0,footer,1001,
4/13/2015,12:43:40 PM,C:\Users\uqebake1\Desktop\SIP\speed task\speedtask1.csv,5,1,1,19,8.02,18,E,footer,1199,TRUE,50111,33,1000,speed19,0,footer,1200,
4/13/2015,12:43:40 PM,C:\Users\uqebake1\Desktop\SIP\speed task\speedtask1.csv,5,1,1,20,20.02,23,I,footer,1199,TRUE,74359,35,1000,speed20,0,footer,1200,
4/13/2015,12:43:40 PM,C:\Users\uqebake1\Desktop\SIP\speed task\speedtask1.csv,5,1,1,21,23.02,23,I,footer,841,TRUE,80941,31,1000,speed21,0,footer,850,
4/13/2015,12:43:40 PM,C:\Users\uqebake1\Desktop\SIP\speed task\speedtask1.csv,5,1,1,22,10.02,23,I,footer,857,TRUE,54277,31,1000,speed22,0,footer,866,
4/13/2015,12:43:40 PM,C:\Users\uqebake1\Desktop\SIP\speed task\speedtask1.csv,5,1,1,23,18.02,23,I,footer,847,TRUE,70543,29,1000,speed23,0,footer,849,
4/13/2015,12:43:40 PM,C:\Users\uqebake1\Desktop\SIP\speed task\speedtask1.csv,5,1,1,24,16.02,23,I,footer,898,TRUE,66475,33,1001,speed24,0,footer,900,
4/13/2015,12:43:40 PM,C:\Users\uqebake1\Desktop\SIP\speed task\speedtask1.csv,5,1,1,25,28.02,18,E,footer,917,TRUE,92241,32,1000,speed25,0,footer,933,
4/13/2015,12:43:40 PM,C:\Users\uqebake1\Desktop\SIP\speed task\speedtask1.csv,5,1,1,26,27.02,18,E,footer,814,TRUE,90424,35,1000,speed26,0,footer,817,
4/13/2015,12:43:40 PM,C:\Users\uqebake1\Desktop\SIP\speed task\speedtask1.csv,5,1,1,27,14.02,18,E,footer,1034,TRUE,61676,280,1000,speed27,0,footer,1050,
4/13/2015,12:43:40 PM,C:\Users\uqebake1\Desktop\SIP\speed task\speedtask1.csv,5,1,1,28,2.02,23,I,footer,2015,TRUE,36095,38,1000,speed28,0,footer,2016,
4/13/2015,12:43:40 PM,C:\Users\uqebake1\Desktop\SIP\speed task\speedtask1.csv,5,1,1,29,13.02,23,I,footer,710,TRUE,59960,36,1000,speed29,0,footer,716,
4/13/2015,12:43:40 PM,C:\Users\uqebake1\Desktop\SIP\speed task\speedtask1.csv,5,1,1,30,24.02,23,I,footer,2919,TRUE,82791,37,1000,speed30,0,footer,2934,
